File: 20150512_JH_RawA.csv
100x_HR25-042_Raw_A_1,
Wavelength (nm),Abs
1340,0.38723
1339,0.388083
1338,0.389027
1337,0.390079
1336,0.391256
1335,0.392354
1334,0.393539
1333,0.394585
1332,0.395823
1331,0.397147
1330,0.398564
1329,0.39988
1328,0.401265
1327,0.402604
1326,0.403852
1325,0.405234
1324,0.406703
1323,0.408069
1322,0.409476
1321,0.410778
1320,0.412037
1319,0.413167
1318,0.414384
1317,0.415598
1316,0.416782
1315,0.417766
1314,0.418658
1313,0.419552
1312,0.420319
1311,0.421148
1310,0.42202
1309,0.422972
1308,0.423801
1307,0.424673
1306,0.425507
1305,0.426464
1304,0.427376
1303,0.42839
1302,0.429466
1301,0.430444
1300,0.431543
1299,0.43266
1298,0.433736
1297,0.434891
1296,0.436081
1295,0.437237
1294,0.438424
1293,0.439567
1292,0.440919
1291,0.442201
1290,0.443563
1289,0.444951
1288,0.446344
1287,0.447963
1286,0.449508
1285,0.451067
1284,0.452799
1283,0.454615
1282,0.456441
1281,0.45822
1280,0.459976
1279,0.46166
1278,0.463199
1277,0.464573
1276,0.465764
1275,0.466652
1274,0.467311
1273,0.467587
1272,0.467512
1271,0.467147
1270,0.466474
1269,0.465614
1268,0.464457
1267,0.463109
1266,0.461695
1265,0.460192
1264,0.45858
1263,0.456978
1262,0.455403
1261,0.453732
1260,0.452065
1259,0.450376
1258,0.448707
1257,0.446831
1256,0.445067
1255,0.443128
1254,0.441023
1253,0.438949
1252,0.436611
1251,0.434276
1250,0.431792
1249,0.429115
1248,0.426375
1247,0.423398
1246,0.420591
1245,0.417688
1244,0.414755
1243,0.411973
1242,0.409106
1241,0.406427
1240,0.403956
1239,0.401652
1238,0.399333
1237,0.397307
1236,0.395492
1235,0.39393
1234,0.392403
1233,0.391177
1232,0.390099
1231,0.389182
1230,0.388517
1229,0.387827
1228,0.387379
1227,0.38706
1226,0.386968
1225,0.386811
1224,0.386793
1223,0.386908
1222,0.387156
1221,0.387427
1220,0.387793
1219,0.388221
1218,0.388851
1217,0.389519
1216,0.390292
1215,0.391177
1214,0.39219
1213,0.393265
1212,0.394524
1211,0.395859
1210,0.397229
1209,0.398641
1208,0.399893
1207,0.401258
1206,0.402547
1205,0.403641
1204,0.404689
1203,0.405561
1202,0.406344
1201,0.406868
1200,0.407412
1199,0.407818
1198,0.408257
1197,0.40859
1196,0.40885
1195,0.409131
1194,0.409441
1193,0.409766
1192,0.410109
1191,0.410566
1190,0.411064
1189,0.41172
1188,0.412389
1187,0.413162
1186,0.414066
1185,0.414995
1184,0.415933
1183,0.416824
1182,0.417645
1181,0.418427
1180,0.418939
1179,0.419175
1178,0.419044
1177,0.418702
1176,0.417934
1175,0.416904
1174,0.415611
1173,0.414142
1172,0.412432
1171,0.410589
1170,0.408737
1169,0.40684
1168,0.405059
1167,0.403202
1166,0.401682
1165,0.400153
1164,0.398849
1163,0.397677
1162,0.396738
1161,0.396066
1160,0.395557
1159,0.395228
1158,0.395058
1157,0.3952
1156,0.395551
1155,0.39608
1154,0.396767
1153,0.397736
1152,0.398918
1151,0.400182
1150,0.401416
1149,0.402873
1148,0.404375
1147,0.405932
1146,0.407372
1145,0.4089
1144,0.410371
1143,0.411647
1142,0.412845
1141,0.414202
1140,0.415455
1139,0.416757
1138,0.418113
1137,0.419415
1136,0.420757
1135,0.422255
1134,0.423591
1133,0.425078
1132,0.426394
1131,0.427675
1130,0.42881
1129,0.429757
1128,0.430434
1127,0.430914
1126,0.431145
1125,0.431029
1124,0.430812
1123,0.43025
1122,0.429553
1121,0.42866
1120,0.427538
1119,0.42625
1118,0.424869
1117,0.423255
1116,0.421357
1115,0.419525
1114,0.417474
1113,0.415244
1112,0.412925
1111,0.410524
1110,0.407916
1109,0.405235
1108,0.402296
1107,0.399187
1106,0.396044
1105,0.392899
1104,0.389741
1103,0.386421
1102,0.383379
1101,0.380313
1100,0.377418
1099,0.374781
1098,0.372258
1097,0.370066
1096,0.367963
1095,0.366107
1094,0.364383
1093,0.362955
1092,0.361679
1091,0.360495
1090,0.359551
1089,0.358794
1088,0.358021
1087,0.357523
1086,0.357051
1085,0.356751
1084,0.356546
1083,0.356434
1082,0.356399
1081,0.356501
1080,0.356631
1079,0.35683
1078,0.35703
1077,0.357347
1076,0.357772
1075,0.358211
1074,0.358787
1073,0.359332
1072,0.359942
1071,0.360657
1070,0.361382
1069,0.362264
1068,0.363154
1067,0.364098
1066,0.365064
1065,0.366079
1064,0.367036
1063,0.367864
1062,0.368649
1061,0.369037
1060,0.369345
1059,0.369364
1058,0.369139
1057,0.368794
1056,0.368216
1055,0.367645
1054,0.367143
1053,0.366497
1052,0.366007
1051,0.365513
1050,0.365199
1049,0.365011
1048,0.364843
1047,0.364753
1046,0.36483
1045,0.364953
1044,0.365162
1043,0.365348
1042,0.365632
1041,0.366043
1040,0.366456
1039,0.366908
1038,0.367559
1037,0.368252
1036,0.369062
1035,0.369893
1034,0.370828
1033,0.371608
1032,0.3724
1031,0.373079
1030,0.373514
1029,0.373724
1028,0.373722
1027,0.373442
1026,0.372982
1025,0.372237
1024,0.371437
1023,0.37039
1022,0.369305
1021,0.368205
1020,0.367108
1019,0.366003
1018,0.365059
1017,0.364096
1016,0.363445
1015,0.36281
1014,0.36227
1013,0.361863
1012,0.361521
1011,0.361367
1010,0.361369
1009,0.361378
1008,0.361488
1007,0.36173
1006,0.361964
1005,0.362399
1004,0.362713
1003,0.363113
1002,0.363597
1001,0.36405
1000,0.364538
999,0.364955
998,0.36551
997,0.366092
996,0.366546
995,0.367159
994,0.367725
993,0.3684
992,0.369257
991,0.370085
990,0.371173
989,0.372237
988,0.373553
987,0.374879
986,0.376198
985,0.377575
984,0.378774
983,0.379911
982,0.380896
981,0.381668
980,0.382108
979,0.382342
978,0.382302
977,0.382044
976,0.38154
975,0.380936
974,0.380297
973,0.379492
972,0.37884
971,0.378266
970,0.377785
969,0.377442
968,0.377207
967,0.377195
966,0.377237
965,0.377452
964,0.377663
963,0.377906
962,0.378232
961,0.378471
960,0.378508
959,0.378462
958,0.378368
957,0.378124
956,0.377741
955,0.377309
954,0.376795
953,0.376194
952,0.375654
951,0.37505
950,0.374465
949,0.37403
948,0.373556
947,0.373105
946,0.372874
945,0.372448
944,0.372182
943,0.371985
942,0.371904
941,0.37178
940,0.371574
939,0.371607
938,0.371588
937,0.371599
936,0.371599
935,0.371672
934,0.371786
933,0.37182
932,0.372008
931,0.372262
930,0.372545
929,0.372849
928,0.373278
927,0.373582
926,0.374026
925,0.374443
924,0.375013
923,0.375427
922,0.375863
921,0.376373
920,0.376647
919,0.376862
918,0.377082
917,0.377207
916,0.377306
915,0.377382
914,0.377436
913,0.377505
912,0.377572
911,0.377689
910,0.377832
909,0.378133
908,0.378362
907,0.378729
906,0.379175
905,0.37966
904,0.380212
903,0.380933
902,0.381629
901,0.382485
900,0.383324
899,0.384142
898,0.385052
897,0.38596
896,0.387032
895,0.388176
894,0.389184
893,0.390221
892,0.391437
891,0.392461
890,0.393685
889,0.39492
888,0.396079
887,0.397219
886,0.398389
885,0.399537
884,0.400676
883,0.401829
882,0.40302
881,0.404032
880,0.405016
879,0.406031
878,0.40693
877,0.407923
876,0.408753
875,0.40954
874,0.410261
873,0.410831
872,0.411319
871,0.411837
870,0.412357
869,0.412729
868,0.41304
867,0.413278
866,0.41347
865,0.413594
864,0.413758
863,0.413827
862,0.413783
861,0.41369
860,0.413605
859,0.413508
858,0.41337
857,0.413218
856,0.413092
855,0.412925
854,0.412852
853,0.412632
852,0.412578
851,0.41246
850,0.412457
849,0.41252
848,0.41258
847,0.412746
846,0.412979
845,0.413246
844,0.413559
843,0.414023
842,0.414434
841,0.41515
840,0.41561
839,0.416388
838,0.417147
837,0.417983
836,0.418868
835,0.419644
834,0.420719
833,0.421733
832,0.422836
831,0.424042
830,0.425084
829,0.426434
828,0.427862
827,0.429254
826,0.430435
825,0.431932
824,0.433167
823,0.434663
822,0.436129
821,0.437774
820,0.439063
819,0.440519
818,0.441991
817,0.443358
816,0.444723
815,0.446203
814,0.447472
813,0.448617
812,0.449639
811,0.450744
810,0.451823
809,0.452614
808,0.453479
807,0.454519
806,0.454926
805,0.455561
804,0.455871
803,0.456314
802,0.456355
801,0.456966
800,0.456753
799,0.461415
798,0.460808
797,0.460206
796,0.459231
795,0.457586
794,0.457187
793,0.455865
792,0.455151
791,0.454034
790,0.452303
789,0.451432
788,0.450454
787,0.449084
786,0.447511
785,0.44695
784,0.445418
783,0.444807
782,0.445299
781,0.444028
780,0.443505
779,0.443524
778,0.443373
777,0.443872
776,0.443958
775,0.444435
774,0.445068
773,0.445564
772,0.446371
771,0.447001
770,0.447688
769,0.449164
768,0.449347
767,0.450268
766,0.451324
765,0.452183
764,0.453049
763,0.455123
762,0.455083
761,0.456235
760,0.456775
759,0.458089
758,0.4586
757,0.459888
756,0.4612
755,0.462002
754,0.463622
753,0.464769
752,0.466689
751,0.468231
750,0.46917
749,0.47064
748,0.472893
747,0.474074
746,0.476276
745,0.4782
744,0.479594
743,0.481813
742,0.483168
741,0.484889
740,0.486827
739,0.488813
738,0.490149
737,0.491946
736,0.493273
735,0.493996
734,0.495218
733,0.495691
732,0.496322
731,0.496421
730,0.49711
729,0.49665
728,0.496615
727,0.496902
726,0.495921
725,0.495533
724,0.495232
723,0.493921
722,0.492901
721,0.491346
720,0.489868
719,0.488359
718,0.485994
717,0.484403
716,0.482674
715,0.480655
714,0.478933
713,0.477257
712,0.47559
711,0.474167
710,0.472818
709,0.471399
708,0.470655
707,0.470212
706,0.469181
705,0.46904
704,0.468971
703,0.468724
702,0.468841
701,0.469234
700,0.469389
699,0.470179
698,0.470559
697,0.471619
696,0.472422
695,0.473047
694,0.474023
693,0.474764
692,0.475571
691,0.476072
690,0.477213
689,0.478118
688,0.478592
687,0.479198
686,0.480176
685,0.480445
684,0.481215
683,0.481755
682,0.48248
681,0.483157
680,0.483619
679,0.484194
678,0.484646
677,0.485016
676,0.485839
675,0.485933
674,0.486612
673,0.487533
672,0.487987
671,0.488282
670,0.488996
669,0.490047
668,0.490641
667,0.49159
666,0.492893
665,0.493809
664,0.494649
663,0.496103
662,0.496966
661,0.498602
660,0.499929
659,0.501668
658,0.503139
657,0.504767
656,0.506094
655,0.507935
654,0.509238
653,0.510373
652,0.511702
651,0.512793
650,0.51346
649,0.513898
648,0.514599
647,0.514856
646,0.514288
645,0.514166
644,0.513482
643,0.512484
642,0.512044
641,0.51082
640,0.509898
639,0.50859
638,0.507395
637,0.506319
636,0.504798
635,0.503692
634,0.502323
633,0.501393
632,0.499853
631,0.499005
630,0.497807
629,0.497043
628,0.496162
627,0.496205
626,0.495752
625,0.496152
624,0.496382
623,0.496793
622,0.497308
621,0.498298
620,0.499344
619,0.500339
618,0.501801
617,0.503181
616,0.504706
615,0.506391
614,0.507901
613,0.509103
612,0.510516
611,0.511684
610,0.513241
609,0.514368
608,0.515773
607,0.517199
606,0.518752
605,0.52019
604,0.521298
603,0.522813
602,0.524024
601,0.52596
600,0.526776
599,0.528146
598,0.528957
597,0.529733
596,0.530847
595,0.531802
594,0.532249
593,0.532758
592,0.532978
591,0.532959
590,0.532901
589,0.532814
588,0.532245
587,0.531475
586,0.531262
585,0.530779
584,0.530869
583,0.530522
582,0.530298
581,0.530408
580,0.530541
579,0.531195
578,0.5315
577,0.532379
576,0.533063
575,0.534496
574,0.535768
573,0.536661
572,0.538689
571,0.540222
570,0.541403
569,0.543069
568,0.544514
567,0.546056
566,0.547451
565,0.549234
564,0.550679
563,0.552267
562,0.553458
561,0.55541
560,0.556535
559,0.558129
558,0.559954
557,0.561105
556,0.562115
555,0.562801
554,0.563693
553,0.564332
552,0.564473
551,0.564348
550,0.564308
549,0.563761
548,0.562845
547,0.561742
546,0.561304
545,0.560384
544,0.558976
543,0.557945
542,0.557116
541,0.55622
540,0.555467
539,0.554757
538,0.554367
537,0.553662
536,0.553438
535,0.55317
534,0.553205
533,0.553518
532,0.553969
531,0.554761
530,0.555181
529,0.556663
528,0.557687
527,0.559172
526,0.560392
525,0.561854
524,0.56345
523,0.565426
522,0.567073
521,0.568839
520,0.570786
519,0.572737
518,0.574827
517,0.576845
516,0.579091
515,0.581394
514,0.583204
513,0.58537
512,0.587654
511,0.589891
510,0.591781
509,0.593974
508,0.595763
507,0.59733
506,0.598799
505,0.600288
504,0.600883
503,0.601828
502,0.602694
501,0.602921
500,0.603147
499,0.603044
498,0.602676
497,0.602462
496,0.60275
495,0.602256
494,0.602458
493,0.602487
492,0.60308
491,0.603225
490,0.604226
489,0.60503
488,0.606027
487,0.607582
486,0.608427
485,0.610027
484,0.611441
483,0.613107
482,0.614307
481,0.615642
480,0.617307
479,0.618645
478,0.619468
477,0.620624
476,0.621888
475,0.622797
474,0.623613
473,0.625038
472,0.626365
471,0.627199
470,0.629176
469,0.63058
468,0.63243
467,0.634735
466,0.636862
465,0.639117
464,0.64159
463,0.644035
462,0.646948
461,0.649482
460,0.652593
459,0.655743
458,0.658678
457,0.661674
456,0.664728
455,0.667789
454,0.670479
453,0.673389
452,0.676255
451,0.678767
450,0.68089
449,0.682839
448,0.68465
447,0.686822
446,0.688357
445,0.689486
444,0.690749
443,0.691676
442,0.692649
441,0.692879
440,0.693951
439,0.694718
438,0.695032
437,0.695761
436,0.69686
435,0.698494
434,0.6996
433,0.701687
432,0.703364
431,0.70564
430,0.70844
429,0.711091
428,0.714254
427,0.717383
426,0.720566
425,0.72483
424,0.728074
423,0.732574
422,0.73661
421,0.74087
420,0.745721
419,0.750362
418,0.755217
417,0.760023
416,0.764673
415,0.769818
414,0.774202
413,0.77828
412,0.781394
411,0.784715
410,0.786618
409,0.788578
408,0.789114
407,0.78899
406,0.789322
405,0.78945
404,0.78926
403,0.789369
402,0.790001
401,0.790882
400,0.791933